Datum:08.05.2019
Uhrzeit:13:27:31
Wavelength	Sample	Monitor	Ibias
300.0000000000	0.0035010000	0.0032650000	0.0425536168
400.0000000000	0.0846800000	0.0643600000	0.0425636106
500.0000000000	0.0269700000	0.0181300000	0.0425636106
600.0000000000	0.0620200000	0.0301200000	0.0425636106
700.0000000000	0.0865200000	0.0836600000	0.0425636106
800.0000000000	0.0765600000	0.1286200000	0.0425636106
900.0000000000	0.0938000000	0.1961500000	0.0425636106
1000.0000000000	0.1044600000	0.2890500000	0.0425636106
1100.0000000000	0.0374100000	0.3195500000	0.0425536168
1200.0000000000	0.0004764000	0.3097500000	0.0425436230
