Datum:08.05.2019
Uhrzeit:12:35:16
Wavelength	Sample	Monitor	Ibias
300.0000000000	0.0034120000	0.0033410000	0.0412544223
400.0000000000	0.0905400000	0.0694800000	0.0412644161
500.0000000000	0.0269000000	0.0181100000	0.0412544223
600.0000000000	0.0618400000	0.0300500000	0.0412544223
700.0000000000	0.0853400000	0.0837000000	0.0412544223
800.0000000000	0.0744200000	0.1285600000	0.0412544223
900.0000000000	0.0917600000	0.1965000000	0.0412544223
1000.0000000000	0.1031200000	0.2894000000	0.0412544223
1100.0000000000	0.0406200000	0.3200000000	0.0412444285
1200.0000000000	0.0005254000	0.3102000000	0.0412444285
