Wavelength 	 Sample Avg 	 Sample Std 	 Monitor Avg 	 Monitor Std
300	0.00391	0.00111	0.0036	0.00065
400	0.10883	0.04987	0.07644	0.02507
500	0.02693	5e-05	0.01807	4e-05
600	0.06188	6e-05	0.03002	5e-05
700	0.08535	4e-05	0.08379	5e-05
800	0.07436	9e-05	0.12856	3e-05
900	0.09184	0.00012	0.19668	0.00026
1000	0.10311	4e-05	0.28968	0.00029
1100	0.04053	0.0001	0.32012	0.00024
1200	0.00052	2e-05	0.31029	0.00018
